File: experimental data/mos2 2 raman.txt
FILETYPE=RAMAN SPECTRUM
DATETIME=2025-07-28 12:37:37
CCD=Artemis
CCDMODEL=Atik428EX
LASER=532
TEMPERATURE=0
IT=4000ms
BINNING_START=761
BINNING_LENGTH=10
MODEL=XperRAM-S
SPECTROMETER=XPE200
GRATING=1800
STARTFROM=-50
RSRANGE=726.503
SPECTRATAKEN=1
DISPLAYMODE=LATEST
TYPE=RamanShift
XUNITS=1/cm
LEN=1931
XYDATA=
-468.195,686
-464.869,816
-461.544,794
-458.220,737
-454.897,770
-451.575,866
-448.255,855
-444.935,722
-441.617,786
-438.299,797
-434.983,807
-431.668,862
-428.354,753
-425.042,763
-421.730,833
-418.419,751
-415.110,838
-411.802,803
-408.494,891
-405.188,984
-401.883,1882
-398.579,2826
-395.277,1147
-391.975,798
-388.674,805
-385.375,736
-382.077,774
-378.780,837
-375.484,2348
-372.189,1625
-368.895,961
-365.602,840
-362.311,823
-359.020,718
-355.731,807
-352.443,811
-349.156,777
-345.870,874
-342.585,743
-339.301,894
-336.018,911
-332.737,824
-329.457,831
-326.177,891
-322.899,861
-319.622,866
-316.346,1005
-313.072,898
-309.798,801
-306.525,890
-303.254,873
-299.984,822
-296.714,787
-293.446,941
-290.180,773
-286.914,949
-283.649,1014
-280.385,821
-277.123,919
-273.862,836
-270.602,943
-267.342,889
-264.085,929
-260.828,887
-257.572,898
-254.317,868
-251.064,913
-247.812,958
-244.560,1155
-241.310,938
-238.061,914
-234.814,898
-231.567,867
-228.321,973
-225.077,948
-221.833,948
-218.591,931
-215.350,1002
-212.110,974
-208.871,1064
-205.634,970
-202.397,1111
-199.161,1044
-195.927,1008
-192.694,981
-189.462,939
-186.231,1036
-183.001,1049
-179.772,1137
-176.545,1157
-173.318,1065
-170.093,1126
-166.869,993
-163.645,1045
-160.423,995
-157.203,1000
-153.983,1042
-150.764,991
-147.547,1019
-144.330,1050
-141.115,1167
-137.901,1129
-134.688,1022
-131.476,1223
-128.266,1276
-125.056,1204
-121.848,1206
-118.640,1141
-115.434,1157
-112.229,1277
-109.025,1134
-105.822,1311
-102.620,1351
-99.420,1507
-96.220,1414
-93.022,1304
-89.825,1644
-86.629,1948
-83.434,1646
-80.240,1936
-77.047,1732
-73.856,2068
-70.665,2094
-67.476,1631
-64.288,1814
-61.101,1722
-57.915,1792
-54.730,1928
-51.547,1481
-48.364,1698
-45.183,1721
-42.002,1618
-38.823,1648
-35.645,1774
-32.468,1861
-29.293,4280
-26.118,2756
-22.945,2456
-19.772,2922
-16.601,4636
-13.431,4255
-10.262,6437
-7.094,14127
-3.927,65535
-0.762,65535
2.403,65535
5.566,65535
8.728,17103
11.889,8297
15.049,5498
18.208,4536
21.366,3695
24.522,3007
27.678,2705
30.832,2340
33.985,3906
37.137,2981
40.288,2205
43.438,1869
46.586,1693
49.734,1494
52.880,1814
56.025,1651
59.170,1769
62.313,1660
65.454,1799
68.595,1787
71.735,1762
74.873,2000
78.010,2194
81.147,1936
84.282,1539
87.416,1635
90.548,1512
93.680,1566
96.811,1470
99.940,1411
103.068,1442
106.195,1405
109.321,1413
112.446,1154
115.570,1223
118.693,1249
121.814,1330
124.934,1209
128.054,1272
131.172,1245
134.289,1142
137.404,1252
140.519,1270
143.633,1121
146.745,1242
149.856,1278
152.966,1271
156.075,1236
159.183,1092
162.290,1158
165.396,1256
168.500,1053
171.604,1287
174.706,1155
177.807,1108
180.907,1187
184.006,1414
187.103,1094
190.200,1062
193.295,1105
196.390,1134
199.483,1058
202.575,1107
205.666,1059
208.755,1130
211.844,1186
214.931,1078
218.018,1198
221.103,988
224.187,1080
227.270,1082
230.352,1114
233.432,1068
236.512,1055
239.590,1058
242.668,1084
245.744,1183
248.819,1078
251.893,1069
254.965,1042
258.037,1031
261.108,1007
264.177,1066
267.245,1093
270.312,1053
273.378,1011
276.443,1010
279.507,994
282.569,1155
285.630,1046
288.691,1158
291.750,1038
294.808,989
297.865,1072
300.920,1041
303.975,1131
307.029,1035
310.081,1112
313.132,1171
316.182,1134
319.231,1109
322.279,1070
325.325,891
328.371,1066
331.415,1064
334.459,1098
337.501,1069
340.542,1006
343.581,986
346.620,1141
349.658,1068
352.694,985
355.729,1152
358.764,1114
361.797,1080
364.829,1252
367.859,1207
370.889,1254
373.917,1438
376.945,1715
379.971,3237
382.996,8637
386.020,1694
389.043,1370
392.065,1231
395.085,1313
398.104,1497
401.123,1811
404.140,3316
407.156,11643
410.171,5064
413.184,1760
416.197,1593
419.209,1364
422.219,1387
425.228,1263
428.236,1399
431.243,1317
434.249,1273
437.253,1412
440.257,1362
443.259,1450
446.261,1466
449.261,1648
452.260,1639
455.257,1483
458.254,1548
461.250,1267
464.244,1529
467.237,1230
470.230,1208
473.221,1006
476.211,991
479.199,1092
482.187,906
485.173,1164
488.159,993
491.143,1141
494.126,1016
497.108,1138
500.089,1100
503.068,996
506.047,1053
509.024,1152
512.001,1223
514.976,1616
517.950,2424
520.923,2828
523.894,1820
526.865,1625
529.834,1319
532.803,1074
535.770,1168
538.736,1141
541.701,1094
544.664,1120
547.627,1112
550.589,1046
553.549,1096
556.508,1070
559.466,1107
562.423,1048
565.379,1184
568.334,1281
571.287,1129
574.240,1294
577.191,1178
580.141,1056
583.090,1129
586.038,1040
588.985,1236
591.930,1232
594.875,1226
597.818,1085
600.760,1027
603.701,1105
606.641,1171
609.580,1177
612.518,1266
615.454,1129
618.390,1071
621.324,1091
624.257,1032
627.189,1055
630.120,1098
633.049,1038
635.978,1047
638.905,1139
641.832,1057
644.757,998
647.681,1009
650.604,979
653.526,983
656.446,923
659.366,908
662.284,953
665.201,915
668.117,1015
671.032,1132
673.946,1046
676.859,1071
679.770,1009
682.681,994
685.590,1060
688.498,966
691.405,902
694.311,946
697.216,1020
700.119,1018
703.022,1067
705.923,978
708.823,899
711.722,1070
714.620,944
717.517,1098
720.413,1044
723.307,949
726.200,1023
729.093,1050
731.984,961
734.874,1164
737.763,1083
740.650,1171
743.537,1088
746.422,1204
749.307,1224
752.190,1142
755.072,1127
757.953,1154
760.833,1104
763.711,1020
766.589,991
769.465,1022
772.340,1011
775.214,1212
778.087,1082
780.959,1004
783.830,1098
786.699,858
789.568,1035
792.435,1005
795.301,944
798.166,916
801.030,974
803.893,1030
806.754,1026
809.615,1058
812.474,1076
815.332,941
818.190,1016
821.046,1059
823.900,1062
826.754,1186
829.607,1084
832.458,925
835.308,947
838.157,1024
841.005,975
843.852,1047
846.698,924
849.543,978
852.386,1006
855.228,857
858.070,970
860.910,975
863.749,943
866.586,1026
869.423,988
872.259,989
875.093,997
877.926,978
880.758,861
883.589,895
886.419,1031
889.248,1118
892.076,889
894.902,1106
897.727,1098
900.552,953
903.375,1028
906.197,932
909.018,917
911.837,889
914.656,947
917.473,995
920.289,871
923.105,1015
925.919,1100
928.731,1075
931.543,940
934.354,953
937.163,1019
939.972,997
942.779,1208
945.585,1038
948.390,1003
951.194,990
953.996,1083
956.798,1038
959.598,1116
962.398,899
965.196,1523
967.993,1045
970.789,1010
973.584,954
976.377,1020
979.170,1068
981.961,1047
984.751,1015
987.540,864
990.328,973
993.115,950
995.901,893
998.686,950
1001.469,974
1004.251,998
1007.033,934
1009.813,878
1012.592,914
1015.369,863
1018.146,922
1020.921,893
1023.696,919
1026.469,889
1029.241,882
1032.012,1065
1034.782,941
1037.551,975
1040.319,1019
1043.085,854
1045.850,863
1048.615,965
1051.378,895
1054.140,874
1056.901,934
1059.660,941
1062.419,919
1065.176,890
1067.933,882
1070.688,1067
1073.442,839
1076.195,900
1078.947,787
1081.697,892
1084.447,837
1087.195,964
1089.942,907
1092.689,898
1095.434,1016
1098.177,1004
1100.920,929
1103.662,907
1106.402,852
1109.142,907
1111.880,921
1114.617,980
1117.353,932
1120.088,883
1122.822,796
1125.554,906
1128.286,1047
1131.016,1071
1133.745,848
1136.473,877
1139.200,880
1141.926,950
1144.651,937
1147.374,837
1150.097,873
1152.818,919
1155.538,873
1158.257,972
1160.975,1001
1163.692,923
1166.408,878
1169.122,812
1171.836,858
1174.548,866
1177.259,939
1179.969,993
1182.678,955
1185.386,941
1188.093,855
1190.798,919
1193.503,889
1196.206,872
1198.908,949
1201.609,900
1204.309,931
1207.008,975
1209.705,782
1212.402,971
1215.097,961
1217.791,926
1220.485,860
1223.177,870
1225.867,966
1228.557,885
1231.246,971
1233.933,866
1236.620,879
1239.305,808
1241.989,941
1244.672,917
1247.354,940
1250.035,869
1252.714,787
1255.393,818
1258.070,880
1260.746,863
1263.421,846
1266.095,866
1268.768,907
1271.440,849
1274.111,932
1276.780,894
1279.448,950
1282.116,892
1284.782,882
1287.447,959
1290.111,837
1292.773,882
1295.435,852
1298.095,908
1300.755,854
1303.413,887
1306.070,786
1308.726,1001
1311.381,931
1314.035,890
1316.687,853
1319.339,788
1321.989,829
1324.638,854
1327.287,795
1329.934,934
1332.579,936
1335.224,942
1337.868,824
1340.510,846
1343.152,938
1345.792,834
1348.431,972
1351.069,887
1353.706,892
1356.342,904
1358.976,939
1361.610,850
1364.242,934
1366.874,859
1369.504,859
1372.133,958
1374.761,921
1377.387,879
1380.013,790
1382.638,885
1385.261,900
1387.883,834
1390.504,906
1393.125,972
1395.743,908
1398.361,986
1400.978,900
1403.594,982
1406.208,799
1408.821,889
1411.433,908
1414.045,926
1416.655,868
1419.263,908
1421.871,864
1424.478,941
1427.083,857
1429.687,876
1432.291,859
1434.893,873
1437.494,862
1440.094,904
1442.692,893
1445.290,894
1447.887,889
1450.482,946
1453.076,895
1455.669,879
1458.261,865
1460.852,870
1463.442,958
1466.031,897
1468.618,879
1471.205,944
1473.790,879
1476.374,866
1478.957,896
1481.539,809
1484.120,996
1486.700,1008
1489.278,992
1491.856,803
1494.432,895
1497.008,854
1499.582,824
1502.155,756
1504.727,962
1507.297,824
1509.867,900
1512.436,922
1515.003,925
1517.569,924
1520.134,932
1522.698,918
1525.261,870
1527.823,916
1530.384,812
1532.944,882
1535.502,876
1538.059,826
1540.616,887
1543.171,832
1545.725,873
1548.278,891
1550.829,910
1553.380,949
1555.930,896
1558.478,834
1561.025,897
1563.572,850
1566.117,874
1568.661,870
1571.203,786
1573.745,909
1576.286,828
1578.825,796
1581.364,856
1583.901,981
1586.437,752
1588.972,906
1591.506,817
1594.039,901
1596.570,855
1599.101,944
1601.631,796
1604.159,788
1606.686,806
1609.212,864
1611.737,872
1614.261,900
1616.784,812
1619.306,736
1621.826,888
1624.345,865
1626.864,902
1629.381,842
1631.897,770
1634.412,969
1636.926,863
1639.439,909
1641.950,852
1644.461,827
1646.970,829
1649.479,880
1651.986,858
1654.492,822
1656.997,826
1659.501,935
1662.003,753
1664.505,861
1667.005,844
1669.505,901
1672.003,877
1674.500,822
1676.996,883
1679.491,806
1681.985,796
1684.478,918
1686.969,923
1689.460,826
1691.949,810
1694.438,819
1696.925,843
1699.411,745
1701.896,968
1704.380,776
1706.862,741
1709.344,837
1711.824,773
1714.304,803
1716.782,870
1719.259,822
1721.735,827
1724.210,912
1726.684,882
1729.157,799
1731.628,772
1734.099,764
1736.568,837
1739.037,849
1741.504,813
1743.970,839
1746.435,777
1748.899,890
1751.361,760
1753.823,798
1756.283,817
1758.743,922
1761.201,826
1763.658,804
1766.114,803
1768.569,812
1771.023,812
1773.476,879
1775.928,814
1778.378,782
1780.828,867
1783.276,833
1785.723,728
1788.169,877
1790.614,741
1793.058,824
1795.501,815
1797.943,752
1800.383,809
1802.823,884
1805.261,792
1807.698,746
1810.134,770
1812.570,777
1815.003,821
1817.436,862
1819.868,781
1822.299,831
1824.728,739
1827.157,814
1829.584,867
1832.010,869
1834.435,837
1836.859,757
1839.282,767
1841.704,709
1844.124,856
1846.544,778
1848.962,776
1851.380,736
1853.796,827
1856.211,817
1858.625,762
1861.038,795
1863.450,754
1865.861,828
1868.270,778
1870.679,840
1873.086,833
1875.492,753
1877.898,801
1880.302,830
1882.705,804
1885.107,761
1887.507,846
1889.907,752
1892.306,802
1894.703,807
1897.100,750
1899.495,779
1901.889,806
1904.282,868
1906.674,815
1909.065,781
1911.455,780
1913.843,815
1916.231,734
1918.617,837
1921.003,789
1923.387,773
1925.770,800
1928.152,814
1930.533,719
1932.913,791
1935.292,729
1937.669,768
1940.046,825
1942.421,762
1944.795,720
1947.169,776
1949.541,770
1951.912,730
1954.282,745
1956.651,801
1959.018,802
1961.385,765
1963.751,791
1966.115,698
1968.478,679
1970.841,765
1973.202,842
1975.562,693
1977.921,746
1980.278,696
1982.635,693
1984.991,762
1987.345,650
1989.699,746
1992.051,746
1994.402,749
1996.752,668
1999.102,837
2001.449,707
2003.796,716
2006.142,806
2008.487,741
2010.830,670
2013.173,731
2015.514,727
2017.854,790
2020.193,682
2022.532,722
2024.869,694
2027.204,860
2029.539,815
2031.873,696
2034.205,710
2036.537,665
2038.867,810
2041.197,655
2043.525,648
2045.852,726
2048.178,714
2050.503,724
2052.827,683
2055.149,740
2057.471,685
2059.791,652
2062.111,656
2064.429,719
2066.746,617
2069.063,691
2071.378,714
2073.691,803
2076.004,672
2078.316,639
2080.627,628
2082.936,637
2085.245,732
2087.552,603
2089.858,665
2092.164,738
2094.468,676
2096.771,676
2099.073,664
2101.373,640
2103.673,711
2105.972,695
2108.269,684
2110.566,640
2112.861,707
2115.155,673
2117.449,680
2119.741,620
2122.032,602
2124.322,628
2126.610,679
2128.898,671
2131.185,680
2133.470,646
2135.755,632
2138.038,702
2140.320,638
2142.601,732
2144.881,665
2147.160,674
2149.438,579
2151.715,629
2153.991,641
2156.265,641
2158.539,689
2160.811,687
2163.083,649
2165.353,697
2167.622,662
2169.890,627
2172.157,672
2174.423,603
2176.688,698
2178.951,682
2181.214,698
2183.475,679
2185.736,661
2187.995,697
2190.253,584
2192.511,642
2194.767,702
2197.022,727
2199.276,658
2201.528,624
2203.780,641
2206.031,699
2208.280,719
2210.529,641
2212.776,653
2215.022,703
2217.267,623