File: experimental data/mos2 1 raman.txt
FILETYPE=RAMAN SPECTRUM
DATETIME=2025-07-28 12:31:01
CCD=Artemis
CCDMODEL=Atik428EX
LASER=532
TEMPERATURE=0
IT=4000ms
BINNING_START=761
BINNING_LENGTH=10
MODEL=XperRAM-S
SPECTROMETER=XPE200
GRATING=1800
STARTFROM=-50
RSRANGE=726.503
SPECTRATAKEN=1
DISPLAYMODE=LATEST
TYPE=RamanShift
XUNITS=1/cm
LEN=1931
XYDATA=
-468.195,720
-464.869,756
-461.544,708
-458.220,663
-454.897,676
-451.575,724
-448.255,701
-444.935,748
-441.617,838
-438.299,699
-434.983,747
-431.668,690
-428.354,643
-425.042,715
-421.730,731
-418.419,771
-415.110,818
-411.802,733
-408.494,777
-405.188,714
-401.883,1200
-398.579,1090
-395.277,935
-391.975,810
-388.674,757
-385.375,800
-382.077,792
-378.780,743
-375.484,1458
-372.189,955
-368.895,939
-365.602,720
-362.311,795
-359.020,726
-355.731,817
-352.443,855
-349.156,807
-345.870,848
-342.585,885
-339.301,760
-336.018,737
-332.737,864
-329.457,875
-326.177,937
-322.899,791
-319.622,842
-316.346,807
-313.072,842
-309.798,797
-306.525,844
-303.254,841
-299.984,800
-296.714,805
-293.446,749
-290.180,941
-286.914,963
-283.649,802
-280.385,817
-277.123,925
-273.862,846
-270.602,907
-267.342,935
-264.085,921
-260.828,835
-257.572,790
-254.317,824
-251.064,1015
-247.812,865
-244.560,903
-241.310,918
-238.061,936
-234.814,941
-231.567,895
-228.321,1118
-225.077,950
-221.833,1113
-218.591,915
-215.350,894
-212.110,958
-208.871,952
-205.634,1026
-202.397,972
-199.161,1047
-195.927,971
-192.694,936
-189.462,1036
-186.231,1031
-183.001,1070
-179.772,1150
-176.545,1168
-173.318,1123
-170.093,1117
-166.869,1139
-163.645,927
-160.423,1054
-157.203,1105
-153.983,1055
-150.764,1024
-147.547,1242
-144.330,1168
-141.115,1104
-137.901,1160
-134.688,1067
-131.476,1550
-128.266,1342
-125.056,1383
-121.848,1317
-118.640,1391
-115.434,1243
-112.229,1484
-109.025,1503
-105.822,1558
-102.620,1597
-99.420,1887
-96.220,1720
-93.022,1966
-89.825,1981
-86.629,2291
-83.434,2067
-80.240,2614
-77.047,2130
-73.856,2999
-70.665,1796
-67.476,1830
-64.288,2046
-61.101,1853
-57.915,2377
-54.730,2084
-51.547,1983
-48.364,2125
-45.183,2087
-42.002,2288
-38.823,1780
-35.645,2142
-32.468,2617
-29.293,3835
-26.118,3330
-22.945,3754
-19.772,3735
-16.601,6945
-13.431,6639
-10.262,9796
-7.094,18369
-3.927,65535
-0.762,65535
2.403,65535
5.566,65535
8.728,27707
11.889,11250
15.049,8184
18.208,6763
21.366,4829
24.522,5060
27.678,3668
30.832,2800
33.985,3401
37.137,2809
40.288,2693
43.438,2935
46.586,2080
49.734,1966
52.880,2149
56.025,1863
59.170,2056
62.313,1855
65.454,2478
68.595,1648
71.735,2088
74.873,2330
78.010,2435
81.147,2237
84.282,1926
87.416,2045
90.548,2112
93.680,1818
96.811,1908
99.940,1895
103.068,1950
106.195,1593
109.321,1632
112.446,1631
115.570,1776
118.693,1506
121.814,1378
124.934,1585
128.054,1184
131.172,1414
134.289,1276
137.404,1316
140.519,1369
143.633,1180
146.745,1025
149.856,1287
152.966,1202
156.075,1332
159.183,1198
162.290,1246
165.396,1157
168.500,1129
171.604,1053
174.706,1209
177.807,1268
180.907,1294
184.006,1317
187.103,1048
190.200,1128
193.295,1179
196.390,1046
199.483,1123
202.575,1124
205.666,1077
208.755,979
211.844,1099
214.931,962
218.018,982
221.103,965
224.187,1048
227.270,1072
230.352,1111
233.432,1029
236.512,1002
239.590,942
242.668,1111
245.744,1037
248.819,855
251.893,1040
254.965,954
258.037,924
261.108,968
264.177,943
267.245,878
270.312,1001
273.378,916
276.443,899
279.507,1030
282.569,1019
285.630,1027
288.691,1115
291.750,801
294.808,915
297.865,948
300.920,943
303.975,922
307.029,918
310.081,1036
313.132,995
316.182,1010
319.231,883
322.279,880
325.325,802
328.371,1017
331.415,910
334.459,963
337.501,1004
340.542,804
343.581,938
346.620,963
349.658,966
352.694,942
355.729,834
358.764,961
361.797,1120
364.829,927
367.859,947
370.889,959
373.917,1015
376.945,1152
379.971,1406
382.996,3785
386.020,1389
389.043,928
392.065,940
395.085,1113
398.104,962
401.123,1142
404.140,1337
407.156,3480
410.171,3384
413.184,1091
416.197,992
419.209,1001
422.219,1056
425.228,948
428.236,971
431.243,971
434.249,1014
437.253,1035
440.257,1066
443.259,1148
446.261,1156
449.261,1138
452.260,1225
455.257,1074
458.254,1070
461.250,1024
464.244,943
467.237,973
470.230,870
473.221,876
476.211,896
479.199,976
482.187,836
485.173,926
488.159,905
491.143,947
494.126,993
497.108,1047
500.089,938
503.068,995
506.047,906
509.024,932
512.001,814
514.976,898
517.950,978
520.923,982
523.894,916
526.865,908
529.834,1048
532.803,838
535.770,926
538.736,964
541.701,880
544.664,998
547.627,1002
550.589,948
553.549,839
556.508,958
559.466,897
562.423,914
565.379,986
568.334,945
571.287,1104
574.240,928
577.191,897
580.141,867
583.090,1023
586.038,1060
588.985,1014
591.930,909
594.875,1035
597.818,1021
600.760,950
603.701,924
606.641,876
609.580,949
612.518,921
615.454,901
618.390,888
621.324,1024
624.257,952
627.189,967
630.120,966
633.049,867
635.978,894
638.905,864
641.832,916
644.757,819
647.681,845
650.604,914
653.526,990
656.446,849
659.366,971
662.284,984
665.201,902
668.117,998
671.032,845
673.946,938
676.859,943
679.770,918
682.681,928
685.590,907
688.498,825
691.405,991
694.311,948
697.216,897
700.119,870
703.022,861
705.923,920
708.823,917
711.722,939
714.620,862
717.517,898
720.413,875
723.307,857
726.200,987
729.093,893
731.984,919
734.874,875
737.763,967
740.650,995
743.537,917
746.422,1030
749.307,947
752.190,911
755.072,945
757.953,945
760.833,950
763.711,1028
766.589,839
769.465,903
772.340,984
775.214,984
778.087,977
780.959,964
783.830,975
786.699,958
789.568,868
792.435,881
795.301,864
798.166,855
801.030,916
803.893,948
806.754,881
809.615,944
812.474,941
815.332,950
818.190,946
821.046,966
823.900,921
826.754,900
829.607,838
832.458,964
835.308,952
838.157,878
841.005,975
843.852,984
846.698,923
849.543,954
852.386,869
855.228,806
858.070,811
860.910,832
863.749,1048
866.586,872
869.423,964
872.259,851
875.093,879
877.926,840
880.758,867
883.589,824
886.419,892
889.248,952
892.076,870
894.902,916
897.727,938
900.552,766
903.375,947
906.197,940
909.018,915
911.837,830
914.656,979
917.473,802
920.289,868
923.105,920
925.919,926
928.731,859
931.543,778
934.354,968
937.163,907
939.972,848
942.779,854
945.585,849
948.390,811
951.194,919
953.996,881
956.798,839
959.598,832
962.398,950
965.196,1305
967.993,942
970.789,960
973.584,911
976.377,897
979.170,961
981.961,865
984.751,828
987.540,760
990.328,902
993.115,895
995.901,862
998.686,830
1001.469,887
1004.251,807
1007.033,808
1009.813,959
1012.592,844
1015.369,913
1018.146,908
1020.921,850
1023.696,790
1026.469,885
1029.241,882
1032.012,959
1034.782,831
1037.551,786
1040.319,926
1043.085,885
1045.850,904
1048.615,863
1051.378,933
1054.140,938
1056.901,867
1059.660,872
1062.419,848
1065.176,820
1067.933,820
1070.688,930
1073.442,896
1076.195,926
1078.947,917
1081.697,831
1084.447,789
1087.195,880
1089.942,815
1092.689,834
1095.434,803
1098.177,908
1100.920,799
1103.662,866
1106.402,762
1109.142,812
1111.880,883
1114.617,829
1117.353,893
1120.088,898
1122.822,814
1125.554,924
1128.286,924
1131.016,914
1133.745,872
1136.473,816
1139.200,796
1141.926,856
1144.651,870
1147.374,829
1150.097,800
1152.818,824
1155.538,919
1158.257,832
1160.975,899
1163.692,892
1166.408,804
1169.122,886
1171.836,872
1174.548,872
1177.259,913
1179.969,952
1182.678,919
1185.386,860
1188.093,1002
1190.798,997
1193.503,800
1196.206,897
1198.908,810
1201.609,831
1204.309,871
1207.008,905
1209.705,794
1212.402,912
1215.097,868
1217.791,871
1220.485,833
1223.177,928
1225.867,734
1228.557,841
1231.246,794
1233.933,845
1236.620,828
1239.305,865
1241.989,894
1244.672,855
1247.354,903
1250.035,822
1252.714,828
1255.393,923
1258.070,953
1260.746,870
1263.421,898
1266.095,778
1268.768,946
1271.440,777
1274.111,844
1276.780,789
1279.448,853
1282.116,829
1284.782,914
1287.447,868
1290.111,853
1292.773,823
1295.435,916
1298.095,843
1300.755,776
1303.413,949
1306.070,863
1308.726,902
1311.381,860
1314.035,954
1316.687,842
1319.339,922
1321.989,902
1324.638,921
1327.287,910
1329.934,895
1332.579,824
1335.224,902
1337.868,849
1340.510,887
1343.152,886
1345.792,850
1348.431,906
1351.069,834
1353.706,873
1356.342,870
1358.976,991
1361.610,799
1364.242,886
1366.874,911
1369.504,875
1372.133,867
1374.761,773
1377.387,882
1380.013,884
1382.638,792
1385.261,974
1387.883,867
1390.504,825
1393.125,892
1395.743,929
1398.361,899
1400.978,876
1403.594,792
1406.208,962
1408.821,858
1411.433,808
1414.045,810
1416.655,919
1419.263,916
1421.871,787
1424.478,821
1427.083,911
1429.687,870
1432.291,865
1434.893,858
1437.494,790
1440.094,852
1442.692,863
1445.290,904
1447.887,809
1450.482,813
1453.076,981
1455.669,878
1458.261,787
1460.852,781
1463.442,805
1466.031,894
1468.618,886
1471.205,822
1473.790,842
1476.374,785
1478.957,901
1481.539,886
1484.120,832
1486.700,896
1489.278,852
1491.856,843
1494.432,810
1497.008,885
1499.582,868
1502.155,865
1504.727,919
1507.297,908
1509.867,985
1512.436,944
1515.003,908
1517.569,869
1520.134,911
1522.698,844
1525.261,874
1527.823,819
1530.384,831
1532.944,818
1535.502,795
1538.059,879
1540.616,841
1543.171,822
1545.725,798
1548.278,918
1550.829,794
1553.380,877
1555.930,831
1558.478,842
1561.025,922
1563.572,849
1566.117,859
1568.661,822
1571.203,785
1573.745,862
1576.286,921
1578.825,875
1581.364,713
1583.901,866
1586.437,881
1588.972,848
1591.506,740
1594.039,763
1596.570,901
1599.101,866
1601.631,792
1604.159,791
1606.686,808
1609.212,830
1611.737,839
1614.261,852
1616.784,815
1619.306,688
1621.826,828
1624.345,850
1626.864,747
1629.381,837
1631.897,812
1634.412,905
1636.926,810
1639.439,821
1641.950,853
1644.461,821
1646.970,822
1649.479,782
1651.986,857
1654.492,788
1656.997,795
1659.501,867
1662.003,810
1664.505,842
1667.005,889
1669.505,801
1672.003,868
1674.500,834
1676.996,805
1679.491,846
1681.985,839
1684.478,796
1686.969,783
1689.460,787
1691.949,860
1694.438,888
1696.925,815
1699.411,688
1701.896,766
1704.380,866
1706.862,864
1709.344,869
1711.824,770
1714.304,792
1716.782,789
1719.259,800
1721.735,742
1724.210,726
1726.684,822
1729.157,781
1731.628,778
1734.099,755
1736.568,807
1739.037,799
1741.504,688
1743.970,765
1746.435,823
1748.899,754
1751.361,768
1753.823,805
1756.283,736
1758.743,826
1761.201,867
1763.658,792
1766.114,787
1768.569,788
1771.023,732
1773.476,855
1775.928,808
1778.378,845
1780.828,933
1783.276,772
1785.723,785
1788.169,772
1790.614,762
1793.058,820
1795.501,758
1797.943,865
1800.383,867
1802.823,814
1805.261,690
1807.698,790
1810.134,766
1812.570,795
1815.003,811
1817.436,856
1819.868,783
1822.299,850
1824.728,831
1827.157,916
1829.584,724
1832.010,815
1834.435,770
1836.859,754
1839.282,764
1841.704,894
1844.124,817
1846.544,713
1848.962,863
1851.380,726
1853.796,720
1856.211,791
1858.625,711
1861.038,879
1863.450,807
1865.861,759
1868.270,756
1870.679,682
1873.086,781
1875.492,715
1877.898,786
1880.302,848
1882.705,849
1885.107,770
1887.507,793
1889.907,810
1892.306,831
1894.703,731
1897.100,833
1899.495,721
1901.889,842
1904.282,780
1906.674,701
1909.065,780
1911.455,730
1913.843,779
1916.231,805
1918.617,785
1921.003,694
1923.387,786
1925.770,826
1928.152,737
1930.533,698
1932.913,740
1935.292,794
1937.669,685
1940.046,786
1942.421,745
1944.795,751
1947.169,787
1949.541,686
1951.912,751
1954.282,852
1956.651,818
1959.018,790
1961.385,758
1963.751,708
1966.115,696
1968.478,661
1970.841,822
1973.202,683
1975.562,675
1977.921,667
1980.278,740
1982.635,801
1984.991,802
1987.345,726
1989.699,756
1992.051,678
1994.402,643
1996.752,776
1999.102,703
2001.449,702
2003.796,760
2006.142,825
2008.487,715
2010.830,708
2013.173,657
2015.514,649
2017.854,719
2020.193,634
2022.532,701
2024.869,708
2027.204,787
2029.539,656
2031.873,699
2034.205,701
2036.537,742
2038.867,666
2041.197,743
2043.525,692
2045.852,654
2048.178,696
2050.503,667
2052.827,704
2055.149,654
2057.471,703
2059.791,671
2062.111,724
2064.429,710
2066.746,707
2069.063,783
2071.378,631
2073.691,780
2076.004,708
2078.316,705
2080.627,708
2082.936,681
2085.245,680
2087.552,698
2089.858,655
2092.164,725
2094.468,627
2096.771,586
2099.073,798
2101.373,721
2103.673,651
2105.972,607
2108.269,722
2110.566,577
2112.861,676
2115.155,640
2117.449,640
2119.741,636
2122.032,618
2124.322,700
2126.610,787
2128.898,652
2131.185,683
2133.470,647
2135.755,637
2138.038,676
2140.320,666
2142.601,660
2144.881,690
2147.160,694
2149.438,620
2151.715,697
2153.991,752
2156.265,655
2158.539,631
2160.811,710
2163.083,700
2165.353,714
2167.622,652
2169.890,621
2172.157,600
2174.423,614
2176.688,641
2178.951,657
2181.214,678
2183.475,630
2185.736,649
2187.995,631
2190.253,664
2192.511,550
2194.767,645
2197.022,529
2199.276,655
2201.528,572
2203.780,649
2206.031,611
2208.280,688
2210.529,634
2212.776,586
2215.022,657
2217.267,582